{
  "resourceType": "Bundle",
  "id": "43c12a90-3612-4ac8-b672-714fcaf091ff",
  "meta": {
    "versionId": "1",
    "profile": [ "https://nrces.in/ndhm/fhir/r4/StructureDefinition/DocumentBundle" ]
  },
  "identifier": {
    "system": "https://www.xyz-hospital.com/bundles",
    "value": "2cc1cf8b-dda8-478a-9480-3960b23135a8"
  },
  "type": "document",
  "timestamp": "2026-02-03T12:15:14.208+00:00",
  "entry": [ {
    "fullUrl": "urn:uuid:398a8a7a-24e3-4ab4-895d-5deb35b15c78",
    "resource": {
      "resourceType": "Composition",
      "id": "398a8a7a-24e3-4ab4-895d-5deb35b15c78",
      "meta": {
        "profile": [ "https://nrces.in/ndhm/fhir/r4/StructureDefinition/InvoiceRecord" ]
      },
      "status": "final",
      "type": {
        "text": "Invoice Record"
      },
      "subject": {
        "reference": "urn:uuid:a4b5d755-dd0b-4f40-a022-7e4defdef8be"
      },
      "date": "2026-01-24T00:00:00+00:00",
      "author": [ {
        "reference": "urn:uuid:fd796098-f678-4466-9031-8876182cb4cb"
      } ],
      "title": "Pharmacy Invoice Record",
      "section": [ {
        "title": "Invoicing",
        "entry": [ {
          "reference": "urn:uuid:7f62f990-8a3f-408c-b07f-01684390ff9e",
          "type": "Invoice"
        } ]
      } ]
    }
  }, {
    "fullUrl": "urn:uuid:a4b5d755-dd0b-4f40-a022-7e4defdef8be",
    "resource": {
      "resourceType": "Patient",
      "id": "a4b5d755-dd0b-4f40-a022-7e4defdef8be",
      "meta": {
        "versionId": "1",
        "profile": [ "https://nrces.in/ndhm/fhir/r4/StructureDefinition/Patient" ]
      },
      "identifier": [ {
        "type": {
          "coding": [ {
            "system": "http://terminology.hl7.org/CodeSystem/v2-0203",
            "code": "MR",
            "display": "Medical record number"
          } ]
        },
        "system": "https://healthid.ndhm.gov.in",
        "value": "91-2345-6789-0123"
      } ],
      "name": [ {
        "text": "Ramesh Kumar"
      } ],
      "gender": "male",
      "birthDate": "1985-03-12"
    }
  }, {
    "fullUrl": "urn:uuid:fd796098-f678-4466-9031-8876182cb4cb",
    "resource": {
      "resourceType": "Practitioner",
      "id": "fd796098-f678-4466-9031-8876182cb4cb",
      "meta": {
        "versionId": "1",
        "profile": [ "https://nrces.in/ndhm/fhir/r4/StructureDefinition/Practitioner" ]
      },
      "identifier": [ {
        "type": {
          "coding": [ {
            "system": "http://terminology.hl7.org/CodeSystem/v2-0203",
            "code": "MD",
            "display": "Medical License number"
          } ]
        },
        "system": "https://doctor.ndhm.gov.in",
        "value": "Medical Practitioner"
      } ],
      "name": [ {
        "text": "Dr. Anil Sharma"
      } ]
    }
  }, {
    "fullUrl": "urn:uuid:7f62f990-8a3f-408c-b07f-01684390ff9e",
    "resource": {
      "resourceType": "Invoice",
      "id": "7f62f990-8a3f-408c-b07f-01684390ff9e",
      "meta": {
        "profile": [ "https://nrces.in/ndhm/fhir/r4/StructureDefinition/Invoice" ]
      },
      "identifier": [ {
        "value": "cd8511b8-d614-48a4-b72e-2240fee36d3e"
      } ],
      "status": "issued",
      "type": {
        "coding": [ {
          "system": "https://nrces.in/ndhm/fhir/r4/CodeSystem/ndhm-billing-codes",
          "code": "01",
          "display": "Pharmacy"
        } ]
      },
      "subject": {
        "reference": "urn:uuid:a4b5d755-dd0b-4f40-a022-7e4defdef8be"
      },
      "date": "2026-02-03T12:15:14+00:00",
      "lineItem": [ {
        "sequence": 1,
        "chargeItemReference": {
          "reference": "urn:uuid:b6cc2417-ff6d-4584-8a96-10f154363e51"
        },
        "priceComponent": [ {
          "type": "base",
          "code": {
            "coding": [ {
              "system": "https://nrces.in/ndhm/fhir/r4/CodeSystem/ndhm-price-components",
              "code": "01",
              "display": "Rate"
            } ]
          },
          "amount": {
            "value": 500.0,
            "currency": "INR"
          }
        }, {
          "type": "informational",
          "code": {
            "coding": [ {
              "system": "https://nrces.in/ndhm/fhir/r4/CodeSystem/ndhm-price-components",
              "code": "00",
              "display": "MRP"
            } ]
          },
          "amount": {
            "value": 500.0,
            "currency": "INR"
          }
        } ]
      } ],
      "totalNet": {
        "value": 500.0,
        "currency": "INR"
      },
      "totalGross": {
        "value": 500.0,
        "currency": "INR"
      }
    }
  }, {
    "fullUrl": "urn:uuid:b6cc2417-ff6d-4584-8a96-10f154363e51",
    "resource": {
      "resourceType": "ChargeItem",
      "id": "b6cc2417-ff6d-4584-8a96-10f154363e51",
      "meta": {
        "profile": [ "https://nrces.in/ndhm/fhir/r4/StructureDefinition/ChargeItem" ]
      },
      "status": "billed",
      "code": {
        "coding": [ {
          "system": "https://nrces.in/ndhm/fhir/r4/CodeSystem/ndhm-billing-codes",
          "code": "05",
          "display": "Medicines"
        } ],
        "text": "OP Consultation Fee"
      },
      "subject": {
        "reference": "urn:uuid:a4b5d755-dd0b-4f40-a022-7e4defdef8be"
      },
      "quantity": {
        "value": 1
      },
      "productCodeableConcept": {
        "text": "OP Consultation Fee"
      }
    }
  } ]
}